"rt","stimulus","response","trial_type","trial_index","time_elapsed","internal_node_id","subject_id","study_id","session_id","task","hc_stimulus","hc_response_key","hc_correct","num_instr","eq_assignment","instr_assignment","song","m1","m2","gain","audioFileA","audioFileB","audioFileC","question_song","eq_array","odd_man_out"
"2566","Welcome to the experiment!<br><br><b/>Please note that headphones are required for this experiment, and that background noise will make the task difficult.</b>
                <br>If you haven't done so already, please put on headphones and move to a quiet environment.<br><br>Then, press the space bar to begin."," ","html-keyboard-response","0","2574","0.0-0.0","abtp","","","","","","","","","","","","","","","","","","",""
"362","First, we'll go through a quick exercise to make sure you're wearing headphones.<br><br>
                Set your volume at 20%, then press the space bar to continue."," ","html-keyboard-response","1","3444","0.0-1.0","abtp","","","","","","","","","","","","","","","","","","",""
"1033","headphone_check_files/norm_noise_calib_stim.wav","1","audio-button-response","2","4538","0.0-2.0-0.0","abtp","","","","","","","","","","","","","","","","","","",""
"297","In each of the following trials, you will hear three sounds separated by silence.<br><br>
                  <b/>Your task is to judge which sound was the SOFTEST - 1, 2, or 3.</b><br><br>
                  Please note that test sounds will only play once.<br><br>
                  Press the space bar to continue."," ","html-keyboard-response","3","4835","0.0-3.0","abtp","","","","","","","","","","","","","","","","","","",""
"1003","headphone_check_files/norm_antiphase_HC_ISO.wav","1","audio-button-response","4","5860","0.0-4.0-0.0","abtp","","","headphone_check","headphone_check_files/norm_antiphase_HC_ISO.wav","1","true","","","","","","","","","","","","",""
"376","headphone_check_files/norm_antiphase_HC_IOS.wav","2","audio-button-response","5","6256","0.0-4.0-0.1","abtp","","","headphone_check","headphone_check_files/norm_antiphase_HC_IOS.wav","2","true","","","","","","","","","","","","",""
"467","headphone_check_files/norm_antiphase_HC_SOI.wav","0","audio-button-response","6","6743","0.0-4.0-0.2","abtp","","","headphone_check","headphone_check_files/norm_antiphase_HC_SOI.wav","0","true","","","","","","","","","","","","",""
"144","headphone_check_files/norm_antiphase_HC_SIO.wav","0","audio-button-response","7","6909","0.0-4.0-0.3","abtp","","","headphone_check","headphone_check_files/norm_antiphase_HC_SIO.wav","0","true","","","","","","","","","","","","",""
"314","headphone_check_files/norm_antiphase_HC_OSI.wav","1","audio-button-response","8","7244","0.0-4.0-0.4","abtp","","","headphone_check","headphone_check_files/norm_antiphase_HC_OSI.wav","1","true","","","","","","","","","","","","",""
"367","headphone_check_files/norm_antiphase_HC_OIS.wav","2","audio-button-response","9","7637","0.0-4.0-0.5","abtp","","","headphone_check","headphone_check_files/norm_antiphase_HC_OIS.wav","2","true","","","","","","","","","","","","",""
"151","<p>Great!  You passed the headphone check.<br><br>
                    Press the space bar to continue."," ","html-keyboard-response","10","7789","0.0-5.0","abtp","","","","","","","","","","","","","","","","","","",""
"478","Now, it's time for the experiment.<br><br>
                  In each of the following trials, you will hear an audio track that consists of one or more musicians, each
                  playing a single instrument.<br><br>
                  <b/>Your task is to report how many musicians you hear playing.</b><br><br>
                  Each track will only play once!<br><br>
                  Press the space bar to continue."," ","html-keyboard-response","11","8268","0.0-6.0","abtp","","","","","","","","","","","","","","","","","","",""
"941","audio/set1/output/mirrored_5dB/4_two_extra_norm.wav","2","audio-button-response","12","9234","0.0-7.0-0.0","abtp","","","trials","","","","4","mirrored_5dB","4_two_extra_norm","1","mirrored","mirrored","5dB","","","","","",""
"94","audio/set0/output/control/2_two_instr_norm.wav","2","audio-button-response","13","9352","0.0-7.0-0.1","abtp","","","trials","","","","2","control","2_two_instr_norm","0","control","control","control","","","","","",""
"128","audio/set2/output/mirrored_8dB/4_two_extra_norm.wav","2","audio-button-response","14","9502","0.0-7.0-0.2","abtp","","","trials","","","","4","mirrored_8dB","4_two_extra_norm","2","mirrored","mirrored","8dB","","","","","",""
"116","audio/set1/output/m1boost_m2cut_8dB/5_three_extra_norm.wav","2","audio-button-response","15","9641","0.0-7.0-0.3","abtp","","","trials","","","","5","m1boost_m2cut_8dB","5_three_extra_norm","1","m1boost","m2cut","8dB","","","","","",""
"124","audio/set0/output/mirrored_5dB/5_three_extra_norm.wav","2","audio-button-response","16","9789","0.0-7.0-0.4","abtp","","","trials","","","","5","mirrored_5dB","5_three_extra_norm","0","mirrored","mirrored","5dB","","","","","",""
"115","audio/set2/output/mirrored_5dB/2_two_instr_norm.wav","2","audio-button-response","17","9927","0.0-7.0-0.5","abtp","","","trials","","","","2","mirrored_5dB","2_two_instr_norm","2","mirrored","mirrored","5dB","","","","","",""
"133","audio/set1/output/m1cut_m2boost_8dB/3_one_extra_norm.wav","2","audio-button-response","18","10086","0.0-7.0-0.6","abtp","","","trials","","","","3","m1cut_m2boost_8dB","3_one_extra_norm","1","m1cut","m2boost","8dB","","","","","",""
"76","audio/set0/output/m1cut_m2boost_5dB/3_one_extra_norm.wav","2","audio-button-response","19","10185","0.0-7.0-0.7","abtp","","","trials","","","","3","m1cut_m2boost_5dB","3_one_extra_norm","0","m1cut","m2boost","5dB","","","","","",""
"153","audio/set2/output/mirrored_5dB/3_one_extra_norm.wav","2","audio-button-response","20","10361","0.0-7.0-0.8","abtp","","","trials","","","","3","mirrored_5dB","3_one_extra_norm","2","mirrored","mirrored","5dB","","","","","",""
"132","audio/set1/output/control/2_two_instr_norm.wav","2","audio-button-response","21","10522","0.0-7.0-0.9","abtp","","","trials","","","","2","control","2_two_instr_norm","1","control","control","control","","","","","",""
"145","audio/set0/output/control/4_two_extra_norm.wav","2","audio-button-response","22","10689","0.0-7.0-0.10","abtp","","","trials","","","","4","control","4_two_extra_norm","0","control","control","control","","","","","",""
"141","audio/set2/output/m1cut_m2boost_5dB/5_three_extra_norm.wav","2","audio-button-response","23","10868","0.0-7.0-0.11","abtp","","","trials","","","","5","m1cut_m2boost_5dB","5_three_extra_norm","2","m1cut","m2boost","5dB","","","","","",""
"645","Thank you!  We have one more task for you.<br><br>
                Each of the following sets of audio clips feature two musicians playing.<br><br>
                <b>Your task is to choose which of the three clips does not sound the same as the other two.</b><br><br>
                Ready?  Press the space bar to continue. "," ","html-keyboard-response","24","11513","0.0-8.0","abtp","","","","","","","","","","","","","","","","","","",""
"973","<div><p>Please listen to these three audio mixes:</p><audio controls id=""audio1""><source src=""audio/set0/output/control/2_two_instr_norm.wav"" type=""audio/mpeg""></audio><audio controls id=""audio2""><source src=""audio/set0/output/mirrored_8dB/2_two_instr_norm.wav"" type=""audio/mpeg""></audio><audio controls id=""audio3""><source src=""audio/set0/output/mirrored_8dB/2_two_instr_norm.wav"" type=""audio/mpeg""></audio><p>And select which file is not like the other two.</p></div>","1","html-button-response","25","12491","0.0-9.0-0.0","abtp","","","question","","","","","","","","","","","audio/set0/output/control/2_two_instr_norm.wav","audio/set0/output/mirrored_8dB/2_two_instr_norm.wav","audio/set0/output/mirrored_8dB/2_two_instr_norm.wav","set0","[""control"",""mirrored_8dB"",""mirrored_8dB""]","0"
"416","<div><p>Please listen to these three audio mixes:</p><audio controls id=""audio1""><source src=""audio/set1/output/control/2_two_instr_norm.wav"" type=""audio/mpeg""></audio><audio controls id=""audio2""><source src=""audio/set1/output/mirrored_8dB/2_two_instr_norm.wav"" type=""audio/mpeg""></audio><audio controls id=""audio3""><source src=""audio/set1/output/control/2_two_instr_norm.wav"" type=""audio/mpeg""></audio><p>And select which file is not like the other two.</p></div>","2","html-button-response","26","12909","0.0-9.0-0.1","abtp","","","question","","","","","","","","","","","audio/set1/output/control/2_two_instr_norm.wav","audio/set1/output/mirrored_8dB/2_two_instr_norm.wav","audio/set1/output/control/2_two_instr_norm.wav","set1","[""control"",""mirrored_8dB"",""control""]","1"
"783","<div><p>Please listen to these three audio mixes:</p><audio controls id=""audio1""><source src=""audio/set2/output/mirrored_8dB/2_two_instr_norm.wav"" type=""audio/mpeg""></audio><audio controls id=""audio2""><source src=""audio/set2/output/control/2_two_instr_norm.wav"" type=""audio/mpeg""></audio><audio controls id=""audio3""><source src=""audio/set2/output/mirrored_8dB/2_two_instr_norm.wav"" type=""audio/mpeg""></audio><p>And select which file is not like the other two.</p></div>","0","html-button-response","27","13694","0.0-9.0-0.2","abtp","","","question","","","","","","","","","","","audio/set2/output/mirrored_8dB/2_two_instr_norm.wav","audio/set2/output/control/2_two_instr_norm.wav","audio/set2/output/mirrored_8dB/2_two_instr_norm.wav","set2","[""mirrored_8dB"",""control"",""mirrored_8dB""]","1"
